C:\Users\60003122\Desktop\Janaina\UNBOX\Unbox.Thisney\Unbox.Thisney.API\bin\Debug\netcoreapp3.1\appsettings.Development.json
C:\Users\60003122\Desktop\Janaina\UNBOX\Unbox.Thisney\Unbox.Thisney.API\bin\Debug\netcoreapp3.1\appsettings.json
C:\Users\60003122\Desktop\Janaina\UNBOX\Unbox.Thisney\Unbox.Thisney.API\bin\Debug\netcoreapp3.1\Properties\launchSettings.json
C:\Users\60003122\Desktop\Janaina\UNBOX\Unbox.Thisney\Unbox.Thisney.API\bin\Debug\netcoreapp3.1\Unbox.Thisney.API.exe
C:\Users\60003122\Desktop\Janaina\UNBOX\Unbox.Thisney\Unbox.Thisney.API\bin\Debug\netcoreapp3.1\Unbox.Thisney.API.deps.json
C:\Users\60003122\Desktop\Janaina\UNBOX\Unbox.Thisney\Unbox.Thisney.API\bin\Debug\netcoreapp3.1\Unbox.Thisney.API.runtimeconfig.json
C:\Users\60003122\Desktop\Janaina\UNBOX\Unbox.Thisney\Unbox.Thisney.API\bin\Debug\netcoreapp3.1\Unbox.Thisney.API.runtimeconfig.dev.json
C:\Users\60003122\Desktop\Janaina\UNBOX\Unbox.Thisney\Unbox.Thisney.API\bin\Debug\netcoreapp3.1\Unbox.Thisney.API.dll
C:\Users\60003122\Desktop\Janaina\UNBOX\Unbox.Thisney\Unbox.Thisney.API\bin\Debug\netcoreapp3.1\Unbox.Thisney.API.pdb
C:\Users\60003122\Desktop\Janaina\UNBOX\Unbox.Thisney\Unbox.Thisney.API\bin\Debug\netcoreapp3.1\Microsoft.EntityFrameworkCore.dll
C:\Users\60003122\Desktop\Janaina\UNBOX\Unbox.Thisney\Unbox.Thisney.API\bin\Debug\netcoreapp3.1\Microsoft.EntityFrameworkCore.Abstractions.dll
C:\Users\60003122\Desktop\Janaina\UNBOX\Unbox.Thisney\Unbox.Thisney.API\bin\Debug\netcoreapp3.1\Microsoft.EntityFrameworkCore.InMemory.dll
C:\Users\60003122\Desktop\Janaina\UNBOX\Unbox.Thisney\Unbox.Thisney.API\bin\Debug\netcoreapp3.1\Remotion.Linq.dll
C:\Users\60003122\Desktop\Janaina\UNBOX\Unbox.Thisney\Unbox.Thisney.API\bin\Debug\netcoreapp3.1\System.Interactive.Async.dll
C:\Users\60003122\Desktop\Janaina\UNBOX\Unbox.Thisney\Unbox.Thisney.API\obj\Debug\netcoreapp3.1\Unbox.Thisney.API.csprojAssemblyReference.cache
C:\Users\60003122\Desktop\Janaina\UNBOX\Unbox.Thisney\Unbox.Thisney.API\obj\Debug\netcoreapp3.1\Unbox.Thisney.API.csproj.CoreCompileInputs.cache
C:\Users\60003122\Desktop\Janaina\UNBOX\Unbox.Thisney\Unbox.Thisney.API\obj\Debug\netcoreapp3.1\Unbox.Thisney.API.MvcApplicationPartsAssemblyInfo.cache
C:\Users\60003122\Desktop\Janaina\UNBOX\Unbox.Thisney\Unbox.Thisney.API\obj\Debug\netcoreapp3.1\Unbox.Thisney.API.AssemblyInfoInputs.cache
C:\Users\60003122\Desktop\Janaina\UNBOX\Unbox.Thisney\Unbox.Thisney.API\obj\Debug\netcoreapp3.1\Unbox.Thisney.API.AssemblyInfo.cs
C:\Users\60003122\Desktop\Janaina\UNBOX\Unbox.Thisney\Unbox.Thisney.API\obj\Debug\netcoreapp3.1\Unbox.Thisney.API.RazorTargetAssemblyInfo.cache
C:\Users\60003122\Desktop\Janaina\UNBOX\Unbox.Thisney\Unbox.Thisney.API\obj\Debug\netcoreapp3.1\Unbox.Thisney.API.csproj.CopyComplete
C:\Users\60003122\Desktop\Janaina\UNBOX\Unbox.Thisney\Unbox.Thisney.API\obj\Debug\netcoreapp3.1\staticwebassets\Unbox.Thisney.API.StaticWebAssets.Manifest.cache
C:\Users\60003122\Desktop\Janaina\UNBOX\Unbox.Thisney\Unbox.Thisney.API\obj\Debug\netcoreapp3.1\staticwebassets\Unbox.Thisney.API.StaticWebAssets.xml
C:\Users\60003122\Desktop\Janaina\UNBOX\Unbox.Thisney\Unbox.Thisney.API\obj\Debug\netcoreapp3.1\Unbox.Thisney.API.dll
C:\Users\60003122\Desktop\Janaina\UNBOX\Unbox.Thisney\Unbox.Thisney.API\obj\Debug\netcoreapp3.1\Unbox.Thisney.API.pdb
C:\Users\60003122\Desktop\Janaina\UNBOX\Unbox.Thisney\Unbox.Thisney.API\obj\Debug\netcoreapp3.1\Unbox.Thisney.API.genruntimeconfig.cache
